File: data/nasdaq_historical/20170103_20181231/TGA.csv
Date,High,Low,Open,Close,Volume,Adj Close
2017-01-03,1.83,1.69,1.73,1.83,255000.0,1.73096
2017-01-04,1.86,1.79,1.81,1.84,130800.0,1.74042
2017-01-05,1.89,1.81,1.86,1.84,143100.0,1.74042
2017-01-06,1.86,1.8,1.83,1.8,115300.0,1.70258
2017-01-09,1.8,1.73,1.8,1.74,70000.0,1.64583
2017-01-10,1.8,1.73,1.76,1.78,114100.0,1.68367
2017-01-11,1.85,1.75,1.78,1.82,113900.0,1.7215
2017-01-12,1.83,1.76,1.8,1.78,32200.0,1.68367
2017-01-13,1.79,1.75,1.75,1.78,42200.0,1.68367
2017-01-17,1.86,1.76,1.78,1.8,64800.0,1.70258
2017-01-18,1.78,1.72,1.78,1.72,35400.0,1.62691
2017-01-19,1.75,1.71,1.73,1.72,44600.0,1.62691
2017-01-20,1.76,1.72,1.74,1.74,48900.0,1.64583
2017-01-23,1.74,1.7,1.72,1.71,71900.0,1.61745
2017-01-24,1.76,1.71,1.71,1.75,251400.0,1.65529
2017-01-25,1.81,1.72,1.76,1.73,95100.0,1.63637
2017-01-26,1.8,1.74,1.74,1.78,86100.0,1.68367
2017-01-27,1.79,1.73,1.77,1.75,36000.0,1.65529
2017-01-30,1.73,1.64,1.73,1.66,193500.0,1.57016
2017-01-31,1.75,1.66,1.75,1.68,139100.0,1.58908
2017-02-01,1.76,1.69,1.73,1.72,106900.0,1.62691
2017-02-02,1.75,1.71,1.75,1.72,71500.0,1.62691
2017-02-03,1.78,1.72,1.73,1.72,52500.0,1.62691
2017-02-06,1.73,1.66,1.72,1.69,109600.0,1.59854
2017-02-07,1.74,1.67,1.69,1.7,60400.0,1.608
2017-02-08,1.75,1.65,1.68,1.66,56600.0,1.57016
2017-02-09,1.67,1.61,1.67,1.64,227900.0,1.55124
2017-02-10,1.83,1.7,1.7,1.79,409300.0,1.69312
2017-02-13,1.85,1.69,1.69,1.84,93600.0,1.74042
2017-02-14,1.85,1.75,1.85,1.79,210400.0,1.69312
2017-02-15,1.81,1.72,1.8,1.75,101000.0,1.65529
2017-02-16,1.8,1.73,1.75,1.73,62700.0,1.63637
2017-02-17,1.77,1.72,1.73,1.74,81400.0,1.64583
2017-02-21,1.81,1.76,1.77,1.76,95500.0,1.66475
2017-02-22,1.78,1.7,1.77,1.7,118000.0,1.608
2017-02-23,1.75,1.65,1.72,1.67,181600.0,1.57962
2017-02-24,1.7,1.64,1.68,1.65,153400.0,1.5607
2017-02-27,1.68,1.64,1.67,1.68,65600.0,1.58908
2017-02-28,1.69,1.61,1.65,1.63,106200.0,1.54178
2017-03-01,1.71,1.65,1.65,1.7,112700.0,1.608
2017-03-02,1.68,1.63,1.67,1.65,84800.0,1.5607
2017-03-03,1.68,1.61,1.68,1.62,145600.0,1.53232
2017-03-06,1.64,1.58,1.6,1.59,80500.0,1.50395
2017-03-07,1.61,1.58,1.58,1.6,91600.0,1.51341
2017-03-08,1.61,1.55,1.58,1.59,230600.0,1.50395
2017-03-09,1.6,1.56,1.59,1.57,95500.0,1.48503
2017-03-10,1.64,1.59,1.6,1.64,47000.0,1.55124
2017-03-13,1.65,1.56,1.65,1.59,61100.0,1.50395
2017-03-14,1.6,1.53,1.58,1.55,215700.0,1.46611
2017-03-15,1.56,1.5,1.5,1.55,196800.0,1.46611
2017-03-16,1.59,1.5,1.55,1.54,119300.0,1.45665
2017-03-17,1.66,1.55,1.56,1.6,137300.0,1.51341
2017-03-20,1.59,1.49,1.59,1.57,128100.0,1.48503
2017-03-21,1.57,1.51,1.57,1.52,34600.0,1.43774
2017-03-22,1.53,1.48,1.53,1.5,144900.0,1.41882
2017-03-23,1.53,1.47,1.51,1.5,91100.0,1.41882
2017-03-24,1.55,1.5,1.54,1.5,66400.0,1.41882
2017-03-27,1.51,1.46,1.48,1.49,127500.0,1.40936
2017-03-28,1.56,1.49,1.5,1.54,60000.0,1.45665
2017-03-29,1.63,1.51,1.52,1.62,96200.0,1.53232
2017-03-30,1.63,1.57,1.63,1.59,43200.0,1.50395
2017-03-31,1.61,1.56,1.58,1.56,150800.0,1.47557
2017-04-03,1.58,1.54,1.55,1.57,100200.0,1.48503
2017-04-04,1.6,1.56,1.6,1.58,91100.0,1.49449
2017-04-05,1.62,1.56,1.6,1.58,47400.0,1.49449
2017-04-06,1.63,1.57,1.57,1.6,73500.0,1.51341
2017-04-07,1.6,1.57,1.6,1.58,25700.0,1.49449
2017-04-10,1.63,1.6,1.6,1.61,71300.0,1.52287
2017-04-11,1.64,1.6,1.62,1.62,75500.0,1.53232
2017-04-12,1.64,1.61,1.61,1.64,75200.0,1.55124
2017-04-13,1.65,1.57,1.65,1.57,58800.0,1.48503
2017-04-17,1.58,1.53,1.56,1.53,70700.0,1.4472
2017-04-18,1.55,1.5,1.5,1.51,19700.0,1.42828
2017-04-19,1.54,1.5,1.54,1.5,44500.0,1.41882
2017-04-20,1.58,1.51,1.56,1.53,35700.0,1.4472
2017-04-21,1.58,1.47,1.54,1.53,119700.0,1.4472
2017-04-24,1.54,1.49,1.53,1.49,32200.0,1.40936
2017-04-25,1.53,1.47,1.49,1.52,54000.0,1.43774
2017-04-26,1.52,1.48,1.52,1.5,51900.0,1.41882
2017-04-27,1.52,1.46,1.49,1.51,78400.0,1.42828
2017-04-28,1.51,1.46,1.51,1.46,80400.0,1.38098
2017-05-01,1.5,1.45,1.45,1.48,50600.0,1.3999
2017-05-02,1.49,1.45,1.48,1.45,54600.0,1.37153
2017-05-03,1.47,1.44,1.46,1.44,35800.0,1.36207
2017-05-04,1.44,1.37,1.42,1.38,134900.0,1.30531
2017-05-05,1.41,1.37,1.37,1.4,42100.0,1.32423
2017-05-08,1.51,1.39,1.39,1.47,101100.0,1.39044
2017-05-09,1.47,1.41,1.46,1.43,50000.0,1.35261
2017-05-10,1.49,1.43,1.43,1.46,82400.0,1.38098
2017-05-11,1.51,1.42,1.42,1.51,95800.0,1.42828
2017-05-12,1.54,1.48,1.52,1.5,84800.0,1.41882
2017-05-15,1.7,1.5,1.51,1.62,157800.0,1.53232
2017-05-16,1.65,1.59,1.6,1.62,59600.0,1.53232
2017-05-17,1.65,1.53,1.64,1.54,36400.0,1.45665
2017-05-18,1.6,1.53,1.54,1.6,34100.0,1.51341
2017-05-19,1.63,1.58,1.6,1.6,22900.0,1.51341
2017-05-22,1.65,1.57,1.65,1.6,43200.0,1.51341
2017-05-23,1.64,1.51,1.64,1.57,77000.0,1.48503
2017-05-24,1.59,1.55,1.56,1.58,81500.0,1.49449
2017-05-25,1.58,1.46,1.58,1.48,208200.0,1.3999
2017-05-26,1.52,1.48,1.5,1.49,43300.0,1.40936
2017-05-30,1.49,1.43,1.48,1.44,48600.0,1.36207
2017-05-31,1.46,1.4,1.44,1.44,144700.0,1.36207
2017-06-01,1.49,1.45,1.48,1.45,135900.0,1.37153
2017-06-02,1.45,1.41,1.42,1.44,47300.0,1.36207
2017-06-05,1.46,1.39,1.44,1.41,82900.0,1.33369
2017-06-06,1.43,1.38,1.4,1.41,151700.0,1.33369
2017-06-07,1.41,1.36,1.39,1.39,102200.0,1.31477
2017-06-08,1.4,1.35,1.39,1.36,110700.0,1.2864
2017-06-09,1.4,1.35,1.36,1.37,61400.0,1.29585
2017-06-12,1.4,1.33,1.4,1.33,104000.0,1.25802
2017-06-13,1.37,1.3,1.34,1.33,125100.0,1.25802
2017-06-14,1.35,1.24,1.34,1.27,143700.0,1.20127
2017-06-15,1.27,1.21,1.25,1.22,156400.0,1.15397
2017-06-16,1.3,1.21,1.23,1.28,106100.0,1.21073
2017-06-19,1.39,1.28,1.28,1.33,223200.0,1.25802
2017-06-20,1.33,1.25,1.32,1.31,70100.0,1.2391
2017-06-21,1.33,1.22,1.31,1.22,109000.0,1.15397
2017-06-22,1.29,1.25,1.27,1.28,28300.0,1.21073
2017-06-23,1.32,1.25,1.25,1.32,26900.0,1.24856
2017-06-26,1.33,1.27,1.33,1.32,18900.0,1.24856
2017-06-27,1.33,1.27,1.32,1.28,30600.0,1.21073
2017-06-28,1.3,1.27,1.27,1.29,15200.0,1.22018
2017-06-29,1.31,1.29,1.29,1.3,37200.0,1.22964
2017-06-30,1.35,1.29,1.35,1.34,10200.0,1.26748
2017-07-03,1.35,1.3,1.33,1.32,10100.0,1.24856
2017-07-05,1.33,1.3,1.33,1.31,3700.0,1.2391
2017-07-06,1.33,1.31,1.31,1.31,13300.0,1.2391
2017-07-07,1.32,1.28,1.32,1.29,46300.0,1.22018
2017-07-10,1.31,1.26,1.31,1.28,16600.0,1.21073
2017-07-11,1.29,1.26,1.27,1.27,24700.0,1.20127
2017-07-12,1.34,1.27,1.27,1.3,46600.0,1.22964
2017-07-13,1.35,1.28,1.29,1.33,60100.0,1.25802
2017-07-14,1.34,1.32,1.34,1.32,9600.0,1.24856
2017-07-17,1.35,1.3,1.3,1.34,20100.0,1.26748
2017-07-18,1.37,1.34,1.36,1.36,39200.0,1.2864
2017-07-19,1.38,1.35,1.36,1.36,126500.0,1.2864
2017-07-20,1.37,1.35,1.36,1.35,13600.0,1.27694
2017-07-21,1.37,1.34,1.34,1.36,144300.0,1.2864
2017-07-24,1.37,1.35,1.35,1.35,14500.0,1.27694
2017-07-25,1.36,1.34,1.35,1.35,41000.0,1.27694
2017-07-26,1.36,1.33,1.35,1.34,63600.0,1.26748
2017-07-27,1.36,1.33,1.34,1.33,28400.0,1.25802
2017-07-28,1.4,1.36,1.36,1.38,31800.0,1.30531
2017-07-31,1.39,1.35,1.36,1.35,10300.0,1.27694
2017-08-01,1.36,1.33,1.35,1.34,6200.0,1.26748
2017-08-02,1.34,1.3,1.34,1.32,46300.0,1.24856
2017-08-03,1.3,1.28,1.3,1.29,27000.0,1.22018
2017-08-04,1.35,1.27,1.27,1.28,36400.0,1.21073
2017-08-07,1.3,1.23,1.27,1.25,14800.0,1.18235
2017-08-08,1.28,1.23,1.25,1.24,65800.0,1.17289
2017-08-09,1.26,1.24,1.25,1.25,18700.0,1.18235
2017-08-10,1.28,1.17,1.28,1.25,115800.0,1.18235
2017-08-11,1.25,1.18,1.24,1.19,100900.0,1.1256
2017-08-14,1.21,1.16,1.2,1.18,100500.0,1.11614
2017-08-15,1.22,1.18,1.19,1.18,65700.0,1.11614
2017-08-16,1.25,1.21,1.22,1.23,106800.0,1.16343
2017-08-17,1.24,1.2,1.24,1.2,67900.0,1.13506
2017-08-18,1.22,1.19,1.19,1.19,44200.0,1.1256
2017-08-21,1.22,1.18,1.19,1.2,63100.0,1.13506
2017-08-22,1.24,1.17,1.2,1.2,72600.0,1.13506
2017-08-23,1.24,1.2,1.2,1.24,40600.0,1.17289
2017-08-24,1.31,1.22,1.24,1.31,34800.0,1.2391
2017-08-25,1.3,1.21,1.3,1.26,63200.0,1.19181
2017-08-28,1.28,1.22,1.25,1.25,28500.0,1.18235
2017-08-29,1.33,1.24,1.24,1.29,23500.0,1.22018
2017-08-30,1.28,1.25,1.28,1.26,23600.0,1.19181
2017-08-31,1.35,1.23,1.26,1.34,60600.0,1.26748
2017-09-01,1.36,1.29,1.35,1.29,18600.0,1.22018
2017-09-05,1.33,1.28,1.3,1.3,34700.0,1.22964
2017-09-06,1.33,1.28,1.3,1.28,34700.0,1.21073
2017-09-07,1.34,1.28,1.29,1.29,12300.0,1.22018
2017-09-08,1.29,1.25,1.28,1.25,46700.0,1.18235
2017-09-11,1.29,1.21,1.29,1.21,178900.0,1.14451
2017-09-12,1.23,1.16,1.23,1.17,127800.0,1.10668
2017-09-13,1.25,1.12,1.16,1.21,144800.0,1.14451
2017-09-14,1.26,1.23,1.25,1.24,25800.0,1.17289
2017-09-15,1.26,1.07,1.23,1.07,438800.0,1.01209
2017-09-18,1.17,1.09,1.1,1.12,289100.0,1.05939
2017-09-19,1.17,1.12,1.13,1.15,81800.0,1.08776
2017-09-20,1.18,1.14,1.15,1.16,129100.0,1.09722
2017-09-21,1.23,1.15,1.15,1.21,169900.0,1.14451
2017-09-22,1.26,1.22,1.23,1.26,56600.0,1.19181
2017-09-25,1.3,1.25,1.26,1.29,82100.0,1.22018
2017-09-26,1.33,1.27,1.27,1.31,96100.0,1.2391
2017-09-27,1.37,1.32,1.33,1.36,99300.0,1.2864
2017-09-28,1.39,1.35,1.35,1.38,64200.0,1.30531
2017-09-29,1.44,1.38,1.38,1.44,101500.0,1.36207
2017-10-02,1.44,1.4,1.41,1.42,24800.0,1.34315
2017-10-03,1.43,1.35,1.41,1.42,59900.0,1.34315
2017-10-04,1.45,1.4,1.42,1.44,47700.0,1.36207
2017-10-05,1.5,1.43,1.44,1.48,56400.0,1.3999
2017-10-06,1.52,1.45,1.45,1.51,182500.0,1.42828
2017-10-09,1.55,1.46,1.52,1.51,58400.0,1.42828
2017-10-10,1.6,1.51,1.51,1.56,137200.0,1.47557
2017-10-11,1.64,1.54,1.56,1.64,115000.0,1.55124
2017-10-12,1.64,1.58,1.64,1.62,82700.0,1.53232
2017-10-13,1.62,1.58,1.62,1.6,49300.0,1.51341
2017-10-16,1.65,1.58,1.59,1.6,41200.0,1.51341
2017-10-17,1.63,1.53,1.58,1.58,112700.0,1.49449
2017-10-18,1.59,1.54,1.57,1.59,46000.0,1.50395
2017-10-19,1.61,1.5,1.61,1.61,35100.0,1.52287
2017-10-20,1.59,1.53,1.58,1.58,28900.0,1.49449
2017-10-23,1.6,1.53,1.6,1.57,46800.0,1.48503
2017-10-24,1.59,1.53,1.53,1.57,41000.0,1.48503
2017-10-25,1.58,1.54,1.57,1.54,19400.0,1.45665
2017-10-26,1.58,1.5,1.57,1.55,49900.0,1.46611
2017-10-27,1.6,1.54,1.56,1.6,34700.0,1.51341
2017-10-30,1.7,1.58,1.6,1.66,101600.0,1.57016
2017-10-31,1.7,1.56,1.65,1.68,45700.0,1.58908
2017-11-01,1.77,1.68,1.68,1.77,151400.0,1.67421
2017-11-02,1.85,1.74,1.76,1.79,150300.0,1.69312
2017-11-03,1.69,1.43,1.64,1.48,631000.0,1.3999
2017-11-06,1.59,1.49,1.56,1.54,128200.0,1.45665
2017-11-07,1.57,1.48,1.53,1.57,56400.0,1.48503
2017-11-08,1.57,1.51,1.56,1.52,20400.0,1.43774
2017-11-09,1.55,1.49,1.55,1.51,42800.0,1.42828
2017-11-10,1.53,1.49,1.5,1.5,54100.0,1.41882
2017-11-13,1.52,1.46,1.52,1.5,59200.0,1.41882
2017-11-14,1.5,1.47,1.49,1.48,43800.0,1.3999
2017-11-15,1.5,1.43,1.5,1.48,49300.0,1.3999
2017-11-16,1.48,1.43,1.48,1.45,50900.0,1.37153
2017-11-17,1.5,1.44,1.44,1.48,21400.0,1.3999
2017-11-20,1.49,1.45,1.48,1.49,21500.0,1.40936
2017-11-21,1.49,1.46,1.49,1.48,27200.0,1.3999
2017-11-22,1.53,1.48,1.48,1.49,116900.0,1.40936
2017-11-24,1.5,1.46,1.46,1.5,2700.0,1.41882
2017-11-27,1.53,1.46,1.51,1.47,39000.0,1.39044
2017-11-28,1.48,1.44,1.46,1.48,21700.0,1.3999
2017-11-29,1.46,1.38,1.46,1.44,107600.0,1.36207
2017-11-30,1.46,1.43,1.44,1.45,99100.0,1.37153
2017-12-01,1.5,1.45,1.46,1.45,51300.0,1.37153
2017-12-04,1.47,1.42,1.46,1.45,101100.0,1.37153
2017-12-05,1.45,1.42,1.44,1.43,13700.0,1.35261
2017-12-06,1.44,1.36,1.44,1.37,171100.0,1.29585
2017-12-07,1.38,1.34,1.37,1.36,34200.0,1.2864
2017-12-08,1.38,1.33,1.38,1.34,99100.0,1.26748
2017-12-11,1.38,1.3,1.35,1.37,49600.0,1.29585
2017-12-12,1.4,1.36,1.36,1.38,39700.0,1.30531
2017-12-13,1.38,1.31,1.37,1.33,75500.0,1.25802
2017-12-14,1.34,1.31,1.34,1.33,102200.0,1.25802
2017-12-15,1.33,1.3,1.32,1.32,44600.0,1.24856
2017-12-18,1.33,1.26,1.32,1.28,122200.0,1.21073
2017-12-19,1.28,1.26,1.27,1.26,78000.0,1.19181
2017-12-20,1.34,1.27,1.3,1.29,103800.0,1.22018
2017-12-21,1.33,1.29,1.3,1.33,132500.0,1.25802
2017-12-22,1.35,1.3,1.33,1.34,222000.0,1.26748
2017-12-26,1.37,1.33,1.34,1.34,61000.0,1.26748
2017-12-27,1.4,1.31,1.35,1.39,175100.0,1.31477
2017-12-28,1.43,1.38,1.38,1.4,119100.0,1.32423
2017-12-29,1.44,1.41,1.43,1.44,57600.0,1.36207
2018-01-02,1.48,1.44,1.47,1.46,54800.0,1.38098
2018-01-03,1.46,1.36,1.45,1.44,94600.0,1.36207
2018-01-04,1.44,1.4,1.44,1.44,77800.0,1.36207
2018-01-05,1.44,1.41,1.44,1.44,98900.0,1.36207
2018-01-08,1.44,1.42,1.44,1.44,119300.0,1.36207
2018-01-09,1.47,1.43,1.45,1.45,135300.0,1.37153
2018-01-10,1.46,1.42,1.42,1.45,94700.0,1.37153
2018-01-11,1.5,1.44,1.44,1.48,315000.0,1.3999
2018-01-12,1.49,1.45,1.49,1.47,138000.0,1.39044
2018-01-16,1.49,1.43,1.49,1.46,91300.0,1.38098
2018-01-17,1.46,1.44,1.46,1.45,28300.0,1.37153
2018-01-18,1.49,1.44,1.45,1.47,59200.0,1.39044
2018-01-19,1.49,1.45,1.47,1.48,33400.0,1.3999
2018-01-22,1.49,1.46,1.47,1.47,48300.0,1.39044
2018-01-23,1.49,1.44,1.46,1.45,49000.0,1.37153
2018-01-24,1.48,1.45,1.47,1.46,56500.0,1.38098
2018-01-25,1.5,1.46,1.46,1.48,61000.0,1.3999
2018-01-26,1.51,1.48,1.48,1.49,77600.0,1.40936
2018-01-29,1.5,1.46,1.49,1.48,59400.0,1.3999
2018-01-30,1.49,1.38,1.48,1.39,180500.0,1.31477
2018-01-31,1.48,1.38,1.4,1.47,118600.0,1.39044
2018-02-01,1.47,1.44,1.47,1.46,58200.0,1.38098
2018-02-02,1.47,1.4,1.44,1.44,65300.0,1.36207
2018-02-05,1.43,1.35,1.43,1.41,105800.0,1.33369
2018-02-06,1.4,1.36,1.4,1.4,93400.0,1.32423
2018-02-07,1.47,1.37,1.4,1.37,175900.0,1.29585
2018-02-08,1.38,1.29,1.37,1.3,124000.0,1.22964
2018-02-09,1.32,1.24,1.32,1.27,83100.0,1.20127
2018-02-12,1.33,1.27,1.27,1.33,70300.0,1.25802
2018-02-13,1.34,1.31,1.31,1.33,81000.0,1.25802
2018-02-14,1.35,1.3,1.33,1.33,39400.0,1.25802
2018-02-15,1.35,1.3,1.35,1.3,52800.0,1.22964
2018-02-16,1.35,1.3,1.3,1.32,39700.0,1.24856
2018-02-20,1.33,1.31,1.31,1.33,28500.0,1.25802
2018-02-21,1.34,1.28,1.33,1.28,69700.0,1.21073
2018-02-22,1.34,1.28,1.3,1.3,77300.0,1.22964
2018-02-23,1.32,1.28,1.29,1.32,9800.0,1.24856
2018-02-26,1.36,1.31,1.34,1.34,71900.0,1.26748
2018-02-27,1.35,1.27,1.31,1.27,92600.0,1.20127
2018-02-28,1.32,1.26,1.3,1.3,70400.0,1.22964
2018-03-01,1.34,1.28,1.34,1.29,14300.0,1.22018
2018-03-02,1.32,1.2,1.28,1.25,79700.0,1.18235
2018-03-05,1.29,1.24,1.25,1.29,49800.0,1.22018
2018-03-06,1.3,1.27,1.3,1.28,45100.0,1.21073
2018-03-07,1.32,1.27,1.3,1.28,64900.0,1.21073
2018-03-08,1.31,1.27,1.31,1.28,160600.0,1.21073
2018-03-09,1.31,1.28,1.3,1.29,69100.0,1.22018
2018-03-12,1.32,1.28,1.28,1.31,47400.0,1.2391
2018-03-13,1.34,1.28,1.28,1.34,44200.0,1.26748
2018-03-14,1.34,1.32,1.34,1.33,21900.0,1.25802
2018-03-15,1.35,1.31,1.33,1.35,19100.0,1.27694
2018-03-16,1.35,1.32,1.33,1.33,26400.0,1.25802
2018-03-19,1.35,1.32,1.32,1.34,27700.0,1.26748
2018-03-20,1.36,1.33,1.33,1.36,50400.0,1.2864
2018-03-21,1.41,1.34,1.34,1.41,41900.0,1.33369
2018-03-22,1.45,1.41,1.41,1.45,23900.0,1.37153
2018-03-23,1.46,1.42,1.46,1.45,33200.0,1.37153
2018-03-26,1.46,1.38,1.46,1.39,19900.0,1.31477
2018-03-27,1.39,1.34,1.38,1.35,49200.0,1.27694
2018-03-28,1.35,1.31,1.33,1.32,39400.0,1.24856
2018-03-29,1.35,1.31,1.33,1.34,47800.0,1.26748
2018-04-02,1.34,1.31,1.33,1.32,23700.0,1.24856
2018-04-03,1.34,1.31,1.34,1.32,17400.0,1.24856
2018-04-04,1.32,1.3,1.32,1.32,11000.0,1.24856
2018-04-05,1.33,1.25,1.31,1.26,273200.0,1.19181
2018-04-06,1.29,1.26,1.27,1.29,78400.0,1.22018
2018-04-09,1.33,1.25,1.29,1.27,134100.0,1.20127
2018-04-10,1.33,1.28,1.28,1.3,104300.0,1.22964
2018-04-11,1.34,1.29,1.29,1.32,91800.0,1.24856
2018-04-12,1.36,1.3,1.31,1.36,69900.0,1.2864
2018-04-13,1.39,1.33,1.35,1.36,72500.0,1.2864
2018-04-16,1.4,1.35,1.35,1.4,42200.0,1.32423
2018-04-17,1.42,1.37,1.39,1.4,131000.0,1.32423
2018-04-18,1.46,1.39,1.4,1.39,149300.0,1.31477
2018-04-19,1.48,1.4,1.4,1.47,54600.0,1.39044
2018-04-20,1.61,1.48,1.48,1.61,147800.0,1.52287
2018-04-23,1.6,1.53,1.6,1.57,136600.0,1.48503
2018-04-24,1.63,1.55,1.56,1.58,270200.0,1.49449
2018-04-25,1.66,1.55,1.57,1.63,88300.0,1.54178
2018-04-26,1.68,1.62,1.64,1.63,64400.0,1.54178
2018-04-27,1.75,1.63,1.74,1.65,241500.0,1.5607
2018-04-30,1.8,1.67,1.71,1.8,264600.0,1.70258
2018-05-01,1.9,1.78,1.8,1.83,180500.0,1.73096
2018-05-02,1.93,1.83,1.84,1.87,179300.0,1.76879
2018-05-03,1.94,1.85,1.87,1.93,144600.0,1.82555
2018-05-04,1.94,1.84,1.9,1.87,162100.0,1.76879
2018-05-07,2.01,1.88,1.88,1.96,243600.0,1.85392
2018-05-08,2.05,1.91,1.96,1.99,303100.0,1.8823
2018-05-09,2.14,2.02,2.02,2.12,620600.0,2.00526
2018-05-10,2.14,1.98,2.14,2.0,285000.0,1.89176
2018-05-11,2.01,1.78,2.01,1.91,377400.0,1.80663
2018-05-14,1.94,1.86,1.88,1.92,249200.0,1.81609
2018-05-15,2.02,1.9,1.93,1.95,367500.0,1.84447
2018-05-16,2.04,1.93,1.96,1.96,295000.0,1.85392
2018-05-17,2.1,2.03,2.05,2.04,664300.0,1.92959
2018-05-18,2.27,2.06,2.17,2.23,529700.0,2.10931
2018-05-21,2.84,2.35,2.38,2.64,1888900.0,2.49712
2018-05-22,2.75,2.19,2.7,2.24,1550600.0,2.11877
2018-05-23,2.49,2.2,2.21,2.44,686800.0,2.30795
2018-05-24,2.45,2.29,2.4,2.31,392500.0,2.18498
2018-05-25,2.3,2.12,2.3,2.27,518800.0,2.14715
2018-05-29,2.32,2.13,2.24,2.29,290200.0,2.16606
2018-05-30,2.49,2.26,2.28,2.49,483600.0,2.35524
2018-05-31,2.55,2.46,2.49,2.54,363700.0,2.40253
2018-06-01,2.58,2.43,2.56,2.47,415800.0,2.33632
2018-06-04,2.52,2.37,2.47,2.41,431700.0,2.27957
2018-06-05,2.42,2.24,2.39,2.36,428600.0,2.23228
2018-06-06,2.47,2.34,2.37,2.46,266000.0,2.32686
2018-06-07,2.52,2.41,2.49,2.45,279100.0,2.3174
2018-06-08,2.47,2.38,2.45,2.46,189400.0,2.32686
2018-06-11,2.42,2.3,2.39,2.37,482500.0,2.24173
2018-06-12,2.48,2.35,2.35,2.39,291300.0,2.26065
2018-06-13,2.45,2.36,2.39,2.4,401700.0,2.27011
2018-06-14,2.47,2.31,2.42,2.32,246600.0,2.19444
2018-06-15,2.3,2.24,2.3,2.24,431400.0,2.11877
2018-06-18,2.38,2.23,2.23,2.33,253700.0,2.2039
2018-06-19,2.41,2.27,2.34,2.38,239500.0,2.25119
2018-06-20,2.43,2.35,2.4,2.36,212300.0,2.23228
2018-06-21,2.36,2.28,2.36,2.31,178400.0,2.18498
2018-06-22,2.47,2.3,2.34,2.39,528300.0,2.26065
2018-06-25,2.43,2.32,2.36,2.4,165700.0,2.27011
2018-06-26,2.48,2.38,2.43,2.44,511500.0,2.30795
2018-06-27,2.68,2.44,2.44,2.63,920900.0,2.48766
2018-06-28,2.84,2.65,2.65,2.72,793100.0,2.57279
2018-06-29,2.83,2.69,2.77,2.77,641600.0,2.62009
2018-07-02,2.76,2.63,2.76,2.73,303400.0,2.58225
2018-07-03,3.03,2.76,2.76,2.87,940600.0,2.71467
2018-07-05,2.93,2.8,2.9,2.9,784100.0,2.74305
2018-07-06,2.95,2.86,2.94,2.94,503500.0,2.78089
2018-07-09,3.3,2.95,2.98,3.29,1352500.0,3.11194
2018-07-10,3.48,3.32,3.33,3.41,1388600.0,3.22545
2018-07-11,3.92,3.33,3.4,3.76,2036600.0,3.55651
2018-07-12,3.89,3.66,3.89,3.76,1408600.0,3.55651
2018-07-13,4.13,3.76,3.77,4.05,1783500.0,3.83081
2018-07-16,4.0,3.67,4.0,3.77,1696900.0,3.56597
2018-07-17,3.74,3.52,3.74,3.53,1012100.0,3.33895
2018-07-18,3.65,3.37,3.52,3.59,999100.0,3.39571
2018-07-19,3.7,3.56,3.57,3.6,753100.0,3.40517
2018-07-20,3.61,3.39,3.6,3.43,600000.0,3.24437
2018-07-23,3.5,3.36,3.45,3.42,384500.0,3.23491
2018-07-24,3.53,3.37,3.37,3.37,685000.0,3.18761
2018-07-25,3.46,3.31,3.37,3.37,361400.0,3.18761
2018-07-26,3.4,3.28,3.33,3.35,318300.0,3.1687
2018-07-27,3.36,3.14,3.36,3.18,540200.0,3.0079
2018-07-30,3.23,3.11,3.18,3.13,359500.0,2.9606
2018-07-31,3.3,3.08,3.14,3.24,421700.0,3.06465
2018-08-01,3.3,3.13,3.24,3.24,330400.0,3.06465
2018-08-02,3.27,3.12,3.23,3.16,247800.0,2.98898
2018-08-03,3.27,3.16,3.17,3.22,581300.0,3.04573
2018-08-06,3.3,3.07,3.2,3.09,430400.0,2.92277
2018-08-07,3.28,3.1,3.1,3.19,304700.0,3.01736
2018-08-08,3.24,3.16,3.17,3.21,418900.0,3.03627
2018-08-09,3.24,3.13,3.21,3.21,209200.0,3.03627
2018-08-10,3.23,3.14,3.2,3.19,363500.0,3.01736
2018-08-13,3.22,3.02,3.22,3.06,533600.0,2.89439
2018-08-14,3.5,2.95,3.19,3.14,2481700.0,2.97006
2018-08-15,3.12,2.83,3.11,2.93,731000.0,2.77143
2018-08-16,3.11,2.88,2.92,3.07,606000.0,2.90385
2018-08-17,3.22,3.07,3.09,3.12,647200.0,2.95114
2018-08-20,3.38,3.1,3.1,3.33,444800.0,3.14978
2018-08-21,3.58,3.31,3.38,3.47,575500.0,3.2822
2018-08-22,3.58,3.43,3.5,3.47,473800.0,3.2822
2018-08-23,3.5,3.25,3.5,3.42,553800.0,3.23491
2018-08-24,3.6,3.43,3.43,3.49,290700.0,3.30112
2018-08-27,3.53,3.42,3.49,3.47,231800.0,3.2822
2018-08-28,3.53,3.42,3.43,3.43,285900.0,3.24437
2018-08-29,3.5,3.42,3.44,3.46,149800.0,3.27274
2018-08-30,3.61,3.35,3.45,3.39,311100.0,3.2393
2018-08-31,3.39,3.31,3.36,3.36,143000.0,3.21063
2018-09-04,3.38,3.26,3.38,3.32,220900.0,3.17241
2018-09-05,3.37,3.19,3.3,3.3,448500.0,3.1533
2018-09-06,3.35,3.18,3.28,3.24,251700.0,3.09597
2018-09-07,3.24,3.16,3.19,3.21,119200.0,3.0673
2018-09-10,3.51,3.24,3.25,3.51,942600.0,3.35396
2018-09-11,3.81,3.52,3.6,3.74,805200.0,3.57374
2018-09-12,3.85,3.5,3.8,3.63,377300.0,3.46863
2018-09-13,3.7,3.54,3.56,3.57,237800.0,3.4113
2018-09-14,3.68,3.51,3.51,3.63,214700.0,3.46863
2018-09-17,3.65,3.53,3.61,3.55,185700.0,3.39219
2018-09-18,3.59,3.37,3.56,3.39,365300.0,3.2393
2018-09-19,3.41,3.35,3.4,3.39,184100.0,3.2393
2018-09-20,3.4,3.25,3.38,3.31,356300.0,3.16286
2018-09-21,3.36,3.23,3.31,3.32,286300.0,3.17241
2018-09-24,3.48,3.31,3.31,3.44,460400.0,3.28708
2018-09-25,3.7,3.41,3.51,3.44,703300.0,3.28708
2018-09-26,3.44,3.33,3.43,3.34,448800.0,3.19152
2018-09-27,3.35,3.28,3.35,3.3,413900.0,3.1533
2018-09-28,3.44,3.27,3.29,3.34,765400.0,3.19152
2018-10-01,3.57,3.35,3.35,3.52,466200.0,3.36352
2018-10-02,3.56,3.45,3.5,3.47,452700.0,3.31574
2018-10-03,3.51,3.36,3.48,3.45,776300.0,3.29663
2018-10-04,3.47,3.28,3.45,3.32,681800.0,3.17241
2018-10-05,3.36,3.11,3.31,3.32,1167900.0,3.17241
2018-10-08,3.3,3.16,3.3,3.28,303600.0,3.13419
2018-10-09,3.41,3.14,3.21,3.35,157100.0,3.20108
2018-10-10,3.37,3.16,3.36,3.18,345000.0,3.03863
2018-10-11,3.21,2.99,3.14,3.0,497800.0,2.86664
2018-10-12,3.17,3.05,3.05,3.1,400000.0,2.96219
2018-10-15,3.15,3.0,3.1,3.02,372100.0,2.88575
2018-10-16,3.14,3.0,3.01,3.11,318600.0,2.97175
2018-10-17,3.13,3.01,3.11,3.09,230100.0,2.95264
2018-10-18,3.08,2.95,3.05,3.02,676200.0,2.88575
2018-10-19,3.1,2.97,3.04,2.99,229600.0,2.85708
2018-10-22,3.0,2.55,2.97,2.59,1288400.0,2.47486
2018-10-23,2.6,2.02,2.52,2.03,2656500.0,1.93976
2018-10-24,2.44,2.06,2.06,2.34,1109300.0,2.23598
2018-10-25,2.5,2.27,2.38,2.45,526100.0,2.34109
2018-10-26,2.51,2.38,2.4,2.45,370400.0,2.34109
2018-10-29,2.49,2.27,2.46,2.31,321100.0,2.20731
2018-10-30,2.35,2.18,2.28,2.31,537200.0,2.20731
2018-10-31,2.42,2.3,2.33,2.31,209200.0,2.20731
2018-11-01,2.47,2.28,2.33,2.47,244200.0,2.3602
2018-11-02,2.48,2.31,2.46,2.36,218000.0,2.25509
2018-11-05,2.42,2.3,2.36,2.37,210500.0,2.26464
2018-11-06,2.42,2.32,2.38,2.39,181300.0,2.28375
2018-11-07,2.51,2.37,2.4,2.41,118400.0,2.30286
2018-11-08,2.37,2.14,2.3,2.22,358600.0,2.12131
2018-11-09,2.21,2.09,2.21,2.17,167900.0,2.07353
2018-11-12,2.2,2.05,2.16,2.11,279500.0,2.0162
2018-11-13,2.47,2.07,2.1,2.38,508300.0,2.2742
2018-11-14,2.42,2.12,2.41,2.15,243400.0,2.05442
2018-11-15,2.26,2.05,2.05,2.19,88100.0,2.09264
2018-11-16,2.26,2.12,2.22,2.25,139400.0,2.14998
2018-11-19,2.44,2.23,2.32,2.32,357900.0,2.21687
2018-11-20,2.3,2.08,2.26,2.14,271700.0,2.04487
2018-11-21,2.23,2.15,2.16,2.22,123900.0,2.12131
2018-11-23,2.17,2.1,2.16,2.13,43000.0,2.03531
2018-11-26,2.21,2.14,2.14,2.17,263700.0,2.07353
2018-11-27,2.17,1.97,2.14,2.01,248100.0,1.92065
2018-11-28,2.07,1.96,2.03,2.05,185400.0,1.95887
2018-11-29,2.19,2.0,2.08,2.17,175700.0,2.07353
2018-11-30,2.17,2.1,2.13,2.16,138600.0,2.06398
2018-12-03,2.23,2.15,2.17,2.18,139500.0,2.08309
2018-12-04,2.18,2.11,2.18,2.13,138100.0,2.03531
2018-12-06,2.15,1.92,2.11,1.96,267500.0,1.87287
2018-12-07,2.07,1.97,2.03,2.0,161900.0,1.91109
2018-12-10,1.98,1.8,1.98,1.81,350900.0,1.72954
2018-12-11,1.91,1.82,1.85,1.9,114300.0,1.81554
2018-12-12,1.95,1.87,1.92,1.88,219900.0,1.79643
2018-12-13,1.92,1.83,1.89,1.86,146800.0,1.77731
2018-12-14,1.88,1.77,1.85,1.78,77100.0,1.70087
2018-12-17,1.84,1.75,1.79,1.77,336800.0,1.69132
2018-12-18,1.78,1.7,1.78,1.71,187600.0,1.63398
2018-12-19,1.75,1.64,1.71,1.66,182000.0,1.58621
2018-12-20,1.66,1.55,1.66,1.62,302600.0,1.54798
2018-12-21,1.64,1.55,1.61,1.58,257200.0,1.50976
2018-12-24,1.57,1.5,1.55,1.52,131900.0,1.45243
2018-12-26,1.68,1.48,1.52,1.66,144900.0,1.58621
2018-12-27,1.68,1.58,1.62,1.68,116300.0,1.60532
2018-12-28,1.73,1.63,1.68,1.69,117000.0,1.61487
2018-12-31,1.88,1.69,1.7,1.87,240200.0,1.78687